Frequency (Hz)	Level (dB)
15.625000	-56.136047
31.250000	-50.050682
46.875000	-49.186321
62.500000	-56.625904
78.125000	-69.930771
93.750000	-58.238480
109.375000	-48.898636
125.000000	-44.948513
140.625000	-30.265198
156.250000	-14.713575
171.875000	-13.181564
187.500000	-24.250416
203.125000	-39.007084
218.750000	-56.030975
234.375000	-55.519115
250.000000	-62.370819
265.625000	-56.822289
281.250000	-72.995842
296.875000	-41.499073
312.500000	-24.882721
328.125000	-15.448011
343.750000	-17.840195
359.375000	-33.750256
375.000000	-52.179996
390.625000	-54.052898
406.250000	-58.708244
421.875000	-50.704254
437.500000	-46.062149
453.125000	-41.394863
468.750000	-24.264893
484.375000	-9.899565
500.000000	-6.629727
515.625000	-14.572555
531.250000	-28.851107
546.875000	-52.276848
562.500000	-55.964523
578.125000	-65.446129
593.750000	-63.307148
609.375000	-60.123547
625.000000	-61.999008
640.625000	-46.632439
656.250000	-35.479462
671.875000	-33.630699
687.500000	-45.932499
703.125000	-45.711109
718.750000	-51.409451
734.375000	-64.678215
750.000000	-86.492798
765.625000	-72.062508
781.250000	-59.619781
796.875000	-77.282295
812.500000	-45.992058
828.125000	-40.468044
843.750000	-44.184219
859.375000	-58.087944
875.000000	-65.897415
890.625000	-73.153290
906.250000	-81.498337
921.875000	-73.704704
937.500000	-73.027969
953.125000	-54.691616
968.750000	-46.850693
984.375000	-41.183037
1000.000000	-38.423374
1015.625000	-44.216103
1031.250000	-52.540012
1046.875000	-64.866951
1062.500000	-67.158661
1078.125000	-85.298141
1093.750000	-71.183472
1109.375000	-63.686703
1125.000000	-54.863632
1140.625000	-51.278957
1156.250000	-42.822887
1171.875000	-40.955803
1187.500000	-49.936535
1203.125000	-57.585949
1218.750000	-68.540970
1234.375000	-78.120667
1250.000000	-83.803780
1265.625000	-74.216057
1281.250000	-70.879883
1296.875000	-54.021233
1312.500000	-43.575779
1328.125000	-38.010715
1343.750000	-40.145859
1359.375000	-49.131939
1375.000000	-60.062943
1390.625000	-57.864262
1406.250000	-52.837589
1421.875000	-63.097874
1437.500000	-58.058029
1453.125000	-59.075378
1468.750000	-44.480782
1484.375000	-35.524857
1500.000000	-33.460293
1515.625000	-37.630772
1531.250000	-47.215832
1546.875000	-53.374664
1562.500000	-53.246082
1578.125000	-65.661278
1593.750000	-50.277081
1609.375000	-57.584515
1625.000000	-40.314022
1640.625000	-30.682219
1656.250000	-25.468357
1671.875000	-26.918526
1687.500000	-33.373280
1703.125000	-40.430099
1718.750000	-48.035046
1734.375000	-54.282284
1750.000000	-56.349060
1765.625000	-55.717258
1781.250000	-53.937637
1796.875000	-62.222706
1812.500000	-48.557846
1828.125000	-43.245953
1843.750000	-42.358665
1859.375000	-47.594219
1875.000000	-52.276833
1890.625000	-60.419147
1906.250000	-58.705189
1921.875000	-57.673092
1937.500000	-59.168896
1953.125000	-47.641777
1968.750000	-43.622845
1984.375000	-41.231579
2000.000000	-40.437996
2015.625000	-44.064178
2031.250000	-45.563202
2046.875000	-66.846031
2062.500000	-51.333153
2078.125000	-55.835625
2093.750000	-54.620056
2109.375000	-53.365211
2125.000000	-47.917625
2140.625000	-40.033665
2156.250000	-39.496365
2171.875000	-40.992928
2187.500000	-43.447674
2203.125000	-48.089935
2218.750000	-65.638481
2234.375000	-69.290352
2250.000000	-66.666351
2265.625000	-56.025784
2281.250000	-45.221359
2296.875000	-41.189507
2312.500000	-36.202579
2328.125000	-33.171410
2343.750000	-34.438934
2359.375000	-36.739815
2375.000000	-38.680733
2390.625000	-44.541985
2406.250000	-51.165150
2421.875000	-54.440197
2437.500000	-61.734734
2453.125000	-47.307308
2468.750000	-36.804298
2484.375000	-32.843227
2500.000000	-31.937918
2515.625000	-32.352959
2531.250000	-36.890640
2546.875000	-40.470547
2562.500000	-49.600746
2578.125000	-59.362045
2593.750000	-50.457993
2609.375000	-48.085331
2625.000000	-46.174339
2640.625000	-44.078045
2656.250000	-39.765770
2671.875000	-39.381580
2687.500000	-42.551968
2703.125000	-50.276501
2718.750000	-48.613464
2734.375000	-54.595245
2750.000000	-55.755375
2765.625000	-50.817978
2781.250000	-50.861393
2796.875000	-50.742786
2812.500000	-43.559700
2828.125000	-40.816429
2843.750000	-42.313679
2859.375000	-43.394154
2875.000000	-43.368599
2890.625000	-53.744530
2906.250000	-55.307529
2921.875000	-47.732986
2937.500000	-45.377819
2953.125000	-42.933609
2968.750000	-42.383198
2984.375000	-40.909195
3000.000000	-39.941818
3015.625000	-41.507149
3031.250000	-40.612286
3046.875000	-40.801868
3062.500000	-55.062149
3078.125000	-62.012039
3093.750000	-54.823483
3109.375000	-47.987686
3125.000000	-46.304066
3140.625000	-43.066830
3156.250000	-40.878887
3171.875000	-40.344025
3187.500000	-45.564812
3203.125000	-59.089596
3218.750000	-50.649464
3234.375000	-50.687153
3250.000000	-55.470055
3265.625000	-66.264099
3281.250000	-62.087593
3296.875000	-50.084549
3312.500000	-41.225716
3328.125000	-39.553436
3343.750000	-40.905148
3359.375000	-42.031151
3375.000000	-44.778362
3390.625000	-51.687912
3406.250000	-54.295483
3421.875000	-53.687885
3437.500000	-63.542377
3453.125000	-51.240082
3468.750000	-40.941967
3484.375000	-37.193100
3500.000000	-35.983479
3515.625000	-35.966892
3531.250000	-37.210415
3546.875000	-47.391582
3562.500000	-45.180779
3578.125000	-45.495609
3593.750000	-52.259384
3609.375000	-46.697773
3625.000000	-53.381809
3640.625000	-46.880798
3656.250000	-42.282196
3671.875000	-41.869411
3687.500000	-45.736107
3703.125000	-49.220783
3718.750000	-48.984737
3734.375000	-55.844269
3750.000000	-68.265450
3765.625000	-79.026436
3781.250000	-79.347778
3796.875000	-60.286823
3812.500000	-53.059048
3828.125000	-51.745659
3843.750000	-54.640957
3859.375000	-50.722538
3875.000000	-52.818295
3890.625000	-59.761219
3906.250000	-73.021240
3921.875000	-85.342804
3937.500000	-97.711693
3953.125000	-89.291779
3968.750000	-83.570496
3984.375000	-67.050369
4000.000000	-59.733387
4015.625000	-59.488651
4031.250000	-66.994476
4046.875000	-62.431435
4062.500000	-61.970882
4078.125000	-66.504356
4093.750000	-69.373253
4109.375000	-60.774433
4125.000000	-58.692276
4140.625000	-61.556770
4156.250000	-61.747486
4171.875000	-63.786602
4187.500000	-64.467270
4203.125000	-58.079990
4218.750000	-57.398243
4234.375000	-63.546249
4250.000000	-66.071236
4265.625000	-65.274429
4281.250000	-63.596584
4296.875000	-63.746853
4312.500000	-62.961761
4328.125000	-67.052353
4343.750000	-67.957954
4359.375000	-65.349701
4375.000000	-68.418633
4390.625000	-77.871941
4406.250000	-89.282715
4421.875000	-99.089897
4437.500000	-78.036247
4453.125000	-71.371475
4468.750000	-71.487228
4484.375000	-78.369843
4500.000000	-93.964729
4515.625000	-105.711945
4531.250000	-112.896873
4546.875000	-111.662666
4562.500000	-115.328056
4578.125000	-126.891960
4593.750000	-119.761978
4609.375000	-119.969002
4625.000000	-147.426895
4640.625000	-123.632156
4656.250000	-125.474091
4671.875000	-120.197762
4687.500000	-122.941628
4703.125000	-138.021652
4718.750000	-125.686050
4734.375000	-129.561829
4750.000000	-131.618225
4765.625000	-133.107513
4781.250000	-130.002945
4796.875000	-119.016975
4812.500000	-120.290031
4828.125000	-127.102409
4843.750000	-124.857132
4859.375000	-121.766327
4875.000000	-122.526413
4890.625000	-122.091232
4906.250000	-129.948456
4921.875000	-126.496658
4937.500000	-132.122421
4953.125000	-120.888420
4968.750000	-122.827332
4984.375000	-125.684242
5000.000000	-114.443169
5015.625000	-112.385773
5031.250000	-103.239845
5046.875000	-91.192970
5062.500000	-75.079956
5078.125000	-68.067688
5093.750000	-66.559807
5109.375000	-73.513741
5125.000000	-60.507263
5140.625000	-60.020844
5156.250000	-63.507904
5171.875000	-73.096657
5187.500000	-70.927841
5203.125000	-70.896797
5218.750000	-70.259689
5234.375000	-72.454651
5250.000000	-84.920280
5265.625000	-84.094330
5281.250000	-69.742287
5296.875000	-64.385544
5312.500000	-64.307068
5328.125000	-66.461197
5343.750000	-66.198448
5359.375000	-67.962791
5375.000000	-68.126724
5390.625000	-60.381744
5406.250000	-60.942215
5421.875000	-61.257023
5437.500000	-59.594395
5453.125000	-61.446262
5468.750000	-53.172718
5484.375000	-53.351105
5500.000000	-56.338112
5515.625000	-56.769196
5531.250000	-62.335041
5546.875000	-61.402634
5562.500000	-67.437523
5578.125000	-58.149296
5593.750000	-62.327633
5609.375000	-71.613731
5625.000000	-58.911766
5640.625000	-55.180126
5656.250000	-53.077477
5671.875000	-55.973465
5687.500000	-74.778595
5703.125000	-61.500298
5718.750000	-59.530869
5734.375000	-56.316776
5750.000000	-64.813889
5765.625000	-64.088974
5781.250000	-83.359329
5796.875000	-62.803192
5812.500000	-60.628448
5828.125000	-63.768181
5843.750000	-71.864052
5859.375000	-89.120850
5875.000000	-98.381149
5890.625000	-109.017166
5906.250000	-111.141663
5921.875000	-113.151009
5937.500000	-110.602386
5953.125000	-117.849380
5968.750000	-120.255432
5984.375000	-129.280670
6000.000000	-127.716080
6015.625000	-124.985123
6031.250000	-133.047287
6046.875000	-125.810112
6062.500000	-125.948753
6078.125000	-127.031067
6093.750000	-119.783997
6109.375000	-121.986168
6125.000000	-112.329750
6140.625000	-113.223808
6156.250000	-106.358322
6171.875000	-100.368332
6187.500000	-99.705551
6203.125000	-102.415054
6218.750000	-93.666992
6234.375000	-98.024948
6250.000000	-75.841217
6265.625000	-69.149147
6281.250000	-69.516014
6296.875000	-76.818840
6312.500000	-72.769005
6328.125000	-67.498352
6343.750000	-67.372421
6359.375000	-72.640518
6375.000000	-71.977791
6390.625000	-65.591667
6406.250000	-65.467407
6421.875000	-78.151543
6437.500000	-69.244720
6453.125000	-75.398888
6468.750000	-75.328590
6484.375000	-72.389214
6500.000000	-75.472565
6515.625000	-79.611084
6531.250000	-76.991829
6546.875000	-69.428970
6562.500000	-72.904633
6578.125000	-71.451866
6593.750000	-72.891205
6609.375000	-66.559151
6625.000000	-66.126205
6640.625000	-71.335304
6656.250000	-72.595879
6671.875000	-70.880997
6687.500000	-75.834877
6703.125000	-69.808502
6718.750000	-69.189171
6734.375000	-72.429405
6750.000000	-68.313461
6765.625000	-68.663300
6781.250000	-67.153870
6796.875000	-69.605225
6812.500000	-73.152496
6828.125000	-70.998482
6843.750000	-71.999672
6859.375000	-74.342865
6875.000000	-75.445587
6890.625000	-71.852943
6906.250000	-64.776108
6921.875000	-71.754623
6937.500000	-64.230400
6953.125000	-60.688076
6968.750000	-63.053406
6984.375000	-70.043060
7000.000000	-94.215172
7015.625000	-74.864792
7031.250000	-68.678024
7046.875000	-81.837540
7062.500000	-67.983383
7078.125000	-69.706161
7093.750000	-69.143478
7109.375000	-70.890572
7125.000000	-68.952271
7140.625000	-66.269035
7156.250000	-66.147964
7171.875000	-71.126648
7187.500000	-76.698166
7203.125000	-76.811584
7218.750000	-70.891487
7234.375000	-72.338409
7250.000000	-76.194534
7265.625000	-75.924599
7281.250000	-72.607124
7296.875000	-69.743431
7312.500000	-75.588089
7328.125000	-83.711884
7343.750000	-76.452110
7359.375000	-75.946358
7375.000000	-81.146049
7390.625000	-94.666176
7406.250000	-114.280083
7421.875000	-105.801270
7437.500000	-113.570526
7453.125000	-113.257881
7468.750000	-106.638649
7484.375000	-107.279495
7500.000000	-106.231949
7515.625000	-98.211479
7531.250000	-83.750374
7546.875000	-76.117523
7562.500000	-76.301491
7578.125000	-83.603256
7593.750000	-99.297569
7609.375000	-106.408958
7625.000000	-117.035500
7640.625000	-116.354179
7656.250000	-98.274414
7671.875000	-84.435852
7687.500000	-77.025078
7703.125000	-76.567345
7718.750000	-84.012138
7734.375000	-99.811737
7750.000000	-126.254860
7765.625000	-94.952675
7781.250000	-85.372139
7796.875000	-78.908180
7812.500000	-78.624191
7828.125000	-79.641029
7843.750000	-73.752777
7859.375000	-71.231781
7875.000000	-86.592461
7890.625000	-75.710251
7906.250000	-76.259369
7921.875000	-87.641655
7937.500000	-71.814018
7953.125000	-73.364151
7968.750000	-74.225639
7984.375000	-71.582375
