Frequency (Hz)	Level (dB)
15.625000	-51.694183
31.250000	-52.354912
46.875000	-53.880295
62.500000	-60.456093
78.125000	-62.922707
93.750000	-54.071712
109.375000	-50.952553
125.000000	-50.503330
140.625000	-31.767420
156.250000	-16.851284
171.875000	-16.005869
187.500000	-28.197887
203.125000	-47.259109
218.750000	-57.881855
234.375000	-57.391544
250.000000	-72.023033
265.625000	-61.986877
281.250000	-54.863026
296.875000	-58.957603
312.500000	-26.891928
328.125000	-19.155344
343.750000	-23.104160
359.375000	-48.348602
375.000000	-54.093807
390.625000	-59.576042
406.250000	-59.365067
421.875000	-53.597527
437.500000	-53.005253
453.125000	-62.647999
468.750000	-37.796810
484.375000	-20.113741
500.000000	-17.389223
515.625000	-27.065422
531.250000	-44.066277
546.875000	-60.143387
562.500000	-58.044174
578.125000	-58.277370
593.750000	-72.461067
609.375000	-62.038692
625.000000	-49.819599
640.625000	-19.061312
656.250000	-10.748436
671.875000	-13.773518
687.500000	-35.593891
703.125000	-42.752308
718.750000	-60.999687
734.375000	-52.498657
750.000000	-61.303070
765.625000	-64.427155
781.250000	-52.436214
796.875000	-42.888313
812.500000	-35.633499
828.125000	-29.859249
843.750000	-36.282246
859.375000	-46.124809
875.000000	-53.838585
890.625000	-54.798508
906.250000	-60.582981
921.875000	-65.087402
937.500000	-51.713665
953.125000	-51.357883
968.750000	-36.410828
984.375000	-27.459908
1000.000000	-29.749474
1015.625000	-51.555206
1031.250000	-54.626282
1046.875000	-63.274200
1062.500000	-60.175045
1078.125000	-63.972691
1093.750000	-69.487045
1109.375000	-63.864071
1125.000000	-52.145760
1140.625000	-36.664700
1156.250000	-32.451523
1171.875000	-40.506744
1187.500000	-47.227055
1203.125000	-58.759251
1218.750000	-72.289612
1234.375000	-93.989029
1250.000000	-67.186516
1265.625000	-63.530785
1281.250000	-53.813961
1296.875000	-42.302357
1312.500000	-35.511978
1328.125000	-37.267303
1343.750000	-45.249241
1359.375000	-64.207718
1375.000000	-54.399189
1390.625000	-59.690716
1406.250000	-62.866272
1421.875000	-55.906342
1437.500000	-52.297127
1453.125000	-50.309097
1468.750000	-32.396832
1484.375000	-26.424084
1500.000000	-31.829243
1515.625000	-45.041752
1531.250000	-63.411484
1546.875000	-55.802616
1562.500000	-60.076675
1578.125000	-58.229706
1593.750000	-51.492077
1609.375000	-46.926231
1625.000000	-38.585789
1640.625000	-23.408382
1656.250000	-20.733528
1671.875000	-29.950418
1687.500000	-43.713902
1703.125000	-49.164696
1718.750000	-56.122486
1734.375000	-59.371632
1750.000000	-56.300018
1765.625000	-67.030678
1781.250000	-53.214825
1796.875000	-38.259781
1812.500000	-30.400841
1828.125000	-32.601845
1843.750000	-43.696796
1859.375000	-52.730415
1875.000000	-50.943523
1890.625000	-52.133228
1906.250000	-58.397034
1921.875000	-73.889687
1937.500000	-56.902885
1953.125000	-48.026379
1968.750000	-33.247860
1984.375000	-29.475197
2000.000000	-36.085457
2015.625000	-49.541328
2031.250000	-48.165154
2046.875000	-55.317913
2062.500000	-73.434525
2078.125000	-68.070862
2093.750000	-69.514534
2109.375000	-51.554012
2125.000000	-39.373981
2140.625000	-29.037500
2156.250000	-28.853502
2171.875000	-42.037289
2187.500000	-48.155548
2203.125000	-49.782291
2218.750000	-65.227501
2234.375000	-66.620903
2250.000000	-55.863510
2265.625000	-49.636593
2281.250000	-47.089027
2296.875000	-31.393559
2312.500000	-25.865200
2328.125000	-31.807766
2343.750000	-44.822693
2359.375000	-47.258587
2375.000000	-49.441292
2390.625000	-69.335541
2406.250000	-60.338291
2421.875000	-64.104332
2437.500000	-47.453743
2453.125000	-35.827385
2468.750000	-26.770985
2484.375000	-25.670084
2500.000000	-40.228149
2515.625000	-42.125114
2531.250000	-59.414116
2546.875000	-54.351162
2562.500000	-55.125584
2578.125000	-64.809296
2593.750000	-70.329872
2609.375000	-53.576450
2625.000000	-40.358978
2640.625000	-35.659714
2656.250000	-39.947269
2671.875000	-54.469810
2687.500000	-53.835613
2703.125000	-72.016068
2718.750000	-85.259499
2734.375000	-72.100739
2750.000000	-60.094116
2765.625000	-66.404572
2781.250000	-45.205433
2796.875000	-31.218019
2812.500000	-28.110146
2828.125000	-39.705811
2843.750000	-41.365681
2859.375000	-55.549660
2875.000000	-48.691200
2890.625000	-52.021694
2906.250000	-61.060631
2921.875000	-53.353516
2937.500000	-56.892738
2953.125000	-36.333523
2968.750000	-27.384050
2984.375000	-28.877832
3000.000000	-49.329372
3015.625000	-46.458641
3031.250000	-51.533062
3046.875000	-52.245071
3062.500000	-54.922894
3078.125000	-63.089088
3093.750000	-61.446320
3109.375000	-50.604504
3125.000000	-36.263515
3140.625000	-32.117973
3156.250000	-36.671627
3171.875000	-45.049164
3187.500000	-55.760406
3203.125000	-56.660713
3218.750000	-75.414925
3234.375000	-74.133919
3250.000000	-70.688942
3265.625000	-66.215103
3281.250000	-53.412933
3296.875000	-42.318970
3312.500000	-43.380138
3328.125000	-56.777523
3343.750000	-49.708088
3359.375000	-48.923531
3375.000000	-57.839996
3390.625000	-81.522209
3406.250000	-73.454285
3421.875000	-59.198227
3437.500000	-48.944878
3453.125000	-41.372181
3468.750000	-37.481506
3484.375000	-43.221092
3500.000000	-48.881630
3515.625000	-56.666080
3531.250000	-63.579739
3546.875000	-57.737976
3562.500000	-53.783520
3578.125000	-53.669922
3593.750000	-54.385334
3609.375000	-48.564808
3625.000000	-42.011597
3640.625000	-40.068714
3656.250000	-45.718254
3671.875000	-52.998161
3687.500000	-51.923000
3703.125000	-64.386215
3718.750000	-65.407768
3734.375000	-65.078995
3750.000000	-67.150024
3765.625000	-55.204556
3781.250000	-47.753960
3796.875000	-44.247921
3812.500000	-49.994804
3828.125000	-54.057655
3843.750000	-58.228539
3859.375000	-61.633423
3875.000000	-66.918465
3890.625000	-70.028824
3906.250000	-77.193871
3921.875000	-92.655144
3937.500000	-77.556816
3953.125000	-74.798615
3968.750000	-71.020920
3984.375000	-77.704933
4000.000000	-72.057968
4015.625000	-83.453354
4031.250000	-78.857750
4046.875000	-87.361092
4062.500000	-92.733330
4078.125000	-100.420609
4093.750000	-124.237930
4109.375000	-109.930840
4125.000000	-118.203239
4140.625000	-118.432091
4156.250000	-122.205460
4171.875000	-116.730476
4187.500000	-124.580490
4203.125000	-119.541946
4218.750000	-124.235580
4234.375000	-127.297676
4250.000000	-129.665100
4265.625000	-124.445259
4281.250000	-124.559242
4296.875000	-117.681732
4312.500000	-117.447006
4328.125000	-123.017006
4343.750000	-128.487442
4359.375000	-122.940796
4375.000000	-121.613976
4390.625000	-121.328552
4406.250000	-118.298294
4421.875000	-116.456902
4437.500000	-114.043259
4453.125000	-100.651245
4468.750000	-93.146187
4484.375000	-88.638580
4500.000000	-86.943207
4515.625000	-87.326622
4531.250000	-89.060059
4546.875000	-92.011124
4562.500000	-96.645447
4578.125000	-98.049934
4593.750000	-80.959595
4609.375000	-74.686592
4625.000000	-68.455811
4640.625000	-70.742691
4656.250000	-71.056534
4671.875000	-82.253075
4687.500000	-74.217049
4703.125000	-77.286507
4718.750000	-71.117737
4734.375000	-64.653038
4750.000000	-65.955040
4765.625000	-65.470093
4781.250000	-56.196392
4796.875000	-57.312832
4812.500000	-64.640892
4828.125000	-75.848198
4843.750000	-81.476135
4859.375000	-83.126221
4875.000000	-85.508446
4890.625000	-76.746193
4906.250000	-75.240532
4921.875000	-79.130150
4937.500000	-62.823521
4953.125000	-60.098240
4968.750000	-67.307243
4984.375000	-65.835388
5000.000000	-68.869225
5015.625000	-66.181999
5031.250000	-66.906372
5046.875000	-65.756203
5062.500000	-63.200367
5078.125000	-65.810860
5093.750000	-73.697708
5109.375000	-59.822838
5125.000000	-59.799408
5140.625000	-63.229248
5156.250000	-73.375496
5171.875000	-75.255020
5187.500000	-72.122223
5203.125000	-66.631996
5218.750000	-66.065369
5234.375000	-74.011894
5250.000000	-70.971748
5265.625000	-62.333244
5281.250000	-56.115089
5296.875000	-56.718174
5312.500000	-68.132782
5328.125000	-65.393082
5343.750000	-72.649170
5359.375000	-64.697586
5375.000000	-65.436752
5390.625000	-62.407681
5406.250000	-67.281929
5421.875000	-67.325966
5437.500000	-59.762047
5453.125000	-53.131958
5468.750000	-57.199154
5484.375000	-70.656349
5500.000000	-70.884377
5515.625000	-66.417084
5531.250000	-67.484901
5546.875000	-65.001648
5562.500000	-69.810051
5578.125000	-69.240784
5593.750000	-61.043530
5609.375000	-55.174747
5625.000000	-54.438576
5640.625000	-73.506950
5656.250000	-71.283226
5671.875000	-63.452385
5687.500000	-71.353065
5703.125000	-63.246529
5718.750000	-65.735962
5734.375000	-70.670845
5750.000000	-68.266388
5765.625000	-58.416557
5781.250000	-55.890228
5796.875000	-60.413940
5812.500000	-72.341309
5828.125000	-68.859299
5843.750000	-68.579201
5859.375000	-80.379044
5875.000000	-79.305870
5890.625000	-69.819695
5906.250000	-66.777725
5921.875000	-67.120598
5937.500000	-60.006752
5953.125000	-58.128418
5968.750000	-64.733414
5984.375000	-74.173737
6000.000000	-67.298241
6015.625000	-71.665527
6031.250000	-102.947044
6046.875000	-82.085548
6062.500000	-81.250275
6078.125000	-84.588097
6093.750000	-70.635445
6109.375000	-64.586151
6125.000000	-73.645729
6140.625000	-73.252808
6156.250000	-67.562904
6171.875000	-63.725422
6187.500000	-66.357826
6203.125000	-63.116673
6218.750000	-68.296684
6234.375000	-71.198433
6250.000000	-66.394836
6265.625000	-74.722878
6281.250000	-69.229294
6296.875000	-71.469841
6312.500000	-69.754036
6328.125000	-71.689651
6343.750000	-78.454597
6359.375000	-76.840698
6375.000000	-73.892303
6390.625000	-81.267708
6406.250000	-85.874252
6421.875000	-105.585754
6437.500000	-108.002350
6453.125000	-116.928642
6468.750000	-116.728775
6484.375000	-126.526863
6500.000000	-122.398987
6515.625000	-125.929558
6531.250000	-116.777306
6546.875000	-103.575851
6562.500000	-100.764214
6578.125000	-78.495895
6593.750000	-69.859833
6609.375000	-70.017754
6625.000000	-85.742554
6640.625000	-70.057907
6656.250000	-69.888702
6671.875000	-78.565811
6687.500000	-99.555260
6703.125000	-102.732002
6718.750000	-118.836174
6734.375000	-116.395409
6750.000000	-111.292671
6765.625000	-101.064034
6781.250000	-94.366722
6796.875000	-90.031403
6812.500000	-88.395164
6828.125000	-87.737526
6843.750000	-85.417114
6859.375000	-86.172775
6875.000000	-78.532066
6890.625000	-91.420158
6906.250000	-71.399918
6921.875000	-67.038254
6937.500000	-65.941307
6953.125000	-67.577072
6968.750000	-71.863503
6984.375000	-80.882454
7000.000000	-110.830429
7015.625000	-97.674202
7031.250000	-101.496063
7046.875000	-80.206390
7062.500000	-71.348351
7078.125000	-68.409210
7093.750000	-66.566811
7109.375000	-67.076279
7125.000000	-73.376549
7140.625000	-74.207069
7156.250000	-72.555122
7171.875000	-80.754906
7187.500000	-73.206215
7203.125000	-66.422180
7218.750000	-66.395203
7234.375000	-74.424179
7250.000000	-75.655128
7265.625000	-65.153603
7281.250000	-66.311554
7296.875000	-83.240791
7312.500000	-73.185532
7328.125000	-76.687408
7343.750000	-73.485291
7359.375000	-88.564705
7375.000000	-71.296684
7390.625000	-73.998642
7406.250000	-86.320175
7421.875000	-76.682655
7437.500000	-75.426590
7453.125000	-79.614388
7468.750000	-82.043915
7484.375000	-92.338867
7500.000000	-92.489563
7515.625000	-93.760941
7531.250000	-97.691483
7546.875000	-101.961563
7562.500000	-92.519852
7578.125000	-87.911873
7593.750000	-84.979752
7609.375000	-89.785995
7625.000000	-85.817307
7640.625000	-86.763580
7656.250000	-83.097084
7671.875000	-86.063988
7687.500000	-101.446991
7703.125000	-91.118134
7718.750000	-84.003807
7734.375000	-73.685303
7750.000000	-69.578827
7765.625000	-74.172691
7781.250000	-83.604980
7796.875000	-93.003815
7812.500000	-84.270226
7828.125000	-93.491554
7843.750000	-91.483711
7859.375000	-93.859192
7875.000000	-87.299576
7890.625000	-76.292397
7906.250000	-69.791748
7921.875000	-69.999786
7937.500000	-75.569069
7953.125000	-77.577438
7968.750000	-81.876579
7984.375000	-80.561317
