Frequency (Hz)	Level (dB)
15.625000	-75.603355
31.250000	-84.546303
46.875000	-70.414215
62.500000	-66.529037
78.125000	-87.815285
93.750000	-54.472912
109.375000	-63.394245
125.000000	-56.141945
140.625000	-45.270500
156.250000	-37.367256
171.875000	-14.619296
187.500000	-5.829329
203.125000	-8.818486
218.750000	-27.733490
234.375000	-47.815678
250.000000	-41.784397
265.625000	-47.634239
281.250000	-51.948502
296.875000	-60.588833
312.500000	-64.223808
328.125000	-63.944221
343.750000	-45.631371
359.375000	-31.596436
375.000000	-21.885469
390.625000	-23.176434
406.250000	-39.136429
421.875000	-51.844887
437.500000	-60.612236
453.125000	-68.326782
468.750000	-65.998360
484.375000	-73.290512
500.000000	-66.433121
515.625000	-62.572941
531.250000	-64.423996
546.875000	-50.107189
562.500000	-38.611794
578.125000	-36.914429
593.750000	-45.525684
609.375000	-60.658375
625.000000	-65.173691
640.625000	-70.435112
656.250000	-79.481796
671.875000	-76.044678
687.500000	-72.582802
703.125000	-77.616440
718.750000	-64.552498
734.375000	-60.095722
750.000000	-52.714146
765.625000	-51.584232
781.250000	-65.861397
796.875000	-62.488907
812.500000	-76.855774
828.125000	-89.081169
843.750000	-106.754784
859.375000	-107.777130
875.000000	-94.550499
890.625000	-83.371559
906.250000	-69.905418
921.875000	-61.857971
937.500000	-56.440090
953.125000	-52.727871
968.750000	-58.579262
984.375000	-69.405396
1000.000000	-73.614861
1015.625000	-83.340706
1031.250000	-79.269051
1046.875000	-83.752632
1062.500000	-75.293716
1078.125000	-75.108444
1093.750000	-77.034706
1109.375000	-63.467331
1125.000000	-59.023647
1140.625000	-55.439857
1156.250000	-59.462769
1171.875000	-68.656227
1187.500000	-73.333160
1203.125000	-73.125771
1218.750000	-76.804298
1234.375000	-87.263214
1250.000000	-96.829506
1265.625000	-93.098495
1281.250000	-100.443420
1296.875000	-77.161491
1312.500000	-66.397842
1328.125000	-58.363495
1343.750000	-58.590214
1359.375000	-68.391693
1375.000000	-76.440399
1390.625000	-75.036758
1406.250000	-77.955597
1421.875000	-89.068909
1437.500000	-82.549171
1453.125000	-83.431572
1468.750000	-76.845467
1484.375000	-69.678024
1500.000000	-63.656738
1515.625000	-59.861088
1531.250000	-62.123718
1546.875000	-69.918137
1562.500000	-79.228920
1578.125000	-89.265366
1593.750000	-88.552292
1609.375000	-78.753136
1625.000000	-80.018059
1640.625000	-85.291603
1656.250000	-99.341743
1671.875000	-80.009857
1687.500000	-69.090088
1703.125000	-60.007858
1718.750000	-57.298512
1734.375000	-59.904373
1750.000000	-66.301437
1765.625000	-86.772415
1781.250000	-79.113068
1796.875000	-88.674713
1812.500000	-96.816238
1828.125000	-93.656456
1843.750000	-80.136765
1859.375000	-69.256050
1875.000000	-59.941319
1890.625000	-57.220264
1906.250000	-56.197117
1921.875000	-56.037971
1937.500000	-54.720173
1953.125000	-59.253639
1968.750000	-64.474815
1984.375000	-78.083099
2000.000000	-87.114891
2015.625000	-80.281113
2031.250000	-68.193184
2046.875000	-55.541630
2062.500000	-46.788937
2078.125000	-43.645035
2093.750000	-40.787380
2109.375000	-41.087250
2125.000000	-43.015278
2140.625000	-45.428875
2156.250000	-49.010368
2171.875000	-60.658897
2187.500000	-69.152023
2203.125000	-62.831745
2218.750000	-60.024101
2234.375000	-44.249050
2250.000000	-38.124413
2265.625000	-33.982166
2281.250000	-29.593323
2296.875000	-28.420040
2312.500000	-29.329100
2328.125000	-32.625183
2343.750000	-36.260437
2359.375000	-51.702656
2375.000000	-52.956894
2390.625000	-72.588623
2406.250000	-62.001179
2421.875000	-47.599979
2437.500000	-39.411003
2453.125000	-35.216835
2468.750000	-34.200298
2484.375000	-37.402504
2500.000000	-42.496201
2515.625000	-51.720913
2531.250000	-66.814522
2546.875000	-61.708000
2562.500000	-61.050392
2578.125000	-62.178547
2593.750000	-71.345695
2609.375000	-80.328743
2625.000000	-51.840015
2640.625000	-45.470654
2656.250000	-45.013073
2671.875000	-47.354202
2687.500000	-54.346592
2703.125000	-64.038864
2718.750000	-76.358757
2734.375000	-76.297295
2750.000000	-83.305412
2765.625000	-80.854935
2781.250000	-77.529053
2796.875000	-72.753479
2812.500000	-51.729301
2828.125000	-44.726986
2843.750000	-39.461239
2859.375000	-35.630871
2875.000000	-35.595150
2890.625000	-42.429382
2906.250000	-45.598400
2921.875000	-48.253345
2937.500000	-56.361652
2953.125000	-56.625648
2968.750000	-54.376663
2984.375000	-43.883133
3000.000000	-37.824787
3015.625000	-32.236507
3031.250000	-28.166668
3046.875000	-26.419361
3062.500000	-26.676201
3078.125000	-28.418133
3093.750000	-34.543339
3109.375000	-43.231388
3125.000000	-62.143948
3140.625000	-57.893009
3156.250000	-51.063290
3171.875000	-62.361771
3187.500000	-36.261833
3203.125000	-29.860806
3218.750000	-27.390762
3234.375000	-25.393631
3250.000000	-25.830353
3265.625000	-28.015432
3281.250000	-30.533760
3296.875000	-38.843502
3312.500000	-43.466476
3328.125000	-46.826771
3343.750000	-48.624401
3359.375000	-45.317070
3375.000000	-43.091763
3390.625000	-33.947128
3406.250000	-30.521957
3421.875000	-29.069757
3437.500000	-30.157637
3453.125000	-31.897346
3468.750000	-32.803917
3484.375000	-35.737160
3500.000000	-42.376598
3515.625000	-45.967438
3531.250000	-43.849190
3546.875000	-43.818760
3562.500000	-43.248089
3578.125000	-43.709270
3593.750000	-44.281693
3609.375000	-43.168201
3625.000000	-41.808990
3640.625000	-47.119354
3656.250000	-59.920010
3671.875000	-66.578827
3687.500000	-73.642662
3703.125000	-80.301933
3718.750000	-86.088348
3734.375000	-102.958107
3750.000000	-98.090096
3765.625000	-100.770020
3781.250000	-113.054886
3796.875000	-109.281578
3812.500000	-106.832832
3828.125000	-113.574997
3843.750000	-112.959442
3859.375000	-107.789223
3875.000000	-107.365189
3890.625000	-100.979515
3906.250000	-84.316750
3921.875000	-85.550255
3937.500000	-61.815205
3953.125000	-54.778603
3968.750000	-53.850887
3984.375000	-55.514538
4000.000000	-61.610485
4015.625000	-78.901711
4031.250000	-76.892632
4046.875000	-80.110199
4062.500000	-82.608757
4078.125000	-87.079605
4093.750000	-96.645157
4109.375000	-116.447281
4125.000000	-108.530220
4140.625000	-111.670197
4156.250000	-121.424431
4171.875000	-112.076714
4187.500000	-114.866386
4203.125000	-128.480011
4218.750000	-121.270515
4234.375000	-123.834923
4250.000000	-130.248611
4265.625000	-123.536789
4281.250000	-129.926926
4296.875000	-122.480293
4312.500000	-118.054962
4328.125000	-122.620758
4343.750000	-124.162636
4359.375000	-121.397942
4375.000000	-119.089165
4390.625000	-124.179497
4406.250000	-119.298225
4421.875000	-127.944656
4437.500000	-118.912621
4453.125000	-116.138336
4468.750000	-95.480453
4484.375000	-86.143394
4500.000000	-70.917046
4515.625000	-61.432369
4531.250000	-58.479778
4546.875000	-60.897495
4562.500000	-65.355797
4578.125000	-77.101311
4593.750000	-67.544304
4609.375000	-65.695930
4625.000000	-60.808197
4640.625000	-57.216625
4656.250000	-67.160507
4671.875000	-82.158615
4687.500000	-65.234535
4703.125000	-58.106007
4718.750000	-57.289177
4734.375000	-60.477943
4750.000000	-53.327328
4765.625000	-53.785885
4781.250000	-54.379589
4796.875000	-57.265083
4812.500000	-57.785946
4828.125000	-69.920334
4843.750000	-54.077694
4859.375000	-55.930405
4875.000000	-58.963165
4890.625000	-55.145115
4906.250000	-61.191784
4921.875000	-61.584446
4937.500000	-64.989075
4953.125000	-65.975700
4968.750000	-63.536480
4984.375000	-61.389500
5000.000000	-62.320499
5015.625000	-68.275497
5031.250000	-65.959114
5046.875000	-68.599686
5062.500000	-72.767715
5078.125000	-72.225716
5093.750000	-64.329704
5109.375000	-57.648327
5125.000000	-57.259350
5140.625000	-56.323750
5156.250000	-56.559990
5171.875000	-59.799900
5187.500000	-61.143009
5203.125000	-61.490288
5218.750000	-61.319752
5234.375000	-60.047783
5250.000000	-60.110477
5265.625000	-61.229649
5281.250000	-60.162968
5296.875000	-54.832615
5312.500000	-56.707199
5328.125000	-61.152069
5343.750000	-57.686947
5359.375000	-58.660694
5375.000000	-58.100311
5390.625000	-53.811687
5406.250000	-58.048656
5421.875000	-56.332466
5437.500000	-53.832764
5453.125000	-58.652843
5468.750000	-57.291771
5484.375000	-54.422932
5500.000000	-56.127167
5515.625000	-55.316830
5531.250000	-57.590645
5546.875000	-55.201260
5562.500000	-55.612961
5578.125000	-59.152050
5593.750000	-68.486809
5609.375000	-77.348907
5625.000000	-75.806671
5640.625000	-71.369995
5656.250000	-62.821209
5671.875000	-57.551239
5687.500000	-60.634258
5703.125000	-69.747078
5718.750000	-67.482605
5734.375000	-66.968575
5750.000000	-69.307823
5765.625000	-85.322342
5781.250000	-84.457664
5796.875000	-82.033562
5812.500000	-111.771225
5828.125000	-68.511063
5843.750000	-61.301163
5859.375000	-61.353889
5875.000000	-68.510429
5890.625000	-85.031982
5906.250000	-68.291908
5921.875000	-61.721035
5937.500000	-62.510105
5953.125000	-69.635712
5968.750000	-82.812218
5984.375000	-96.238480
6000.000000	-82.755104
6015.625000	-71.628197
6031.250000	-62.801563
6046.875000	-60.465126
6062.500000	-61.409672
6078.125000	-63.749813
6093.750000	-65.347000
6109.375000	-62.023079
6125.000000	-57.075325
6140.625000	-60.406197
6156.250000	-69.777611
6171.875000	-73.394012
6187.500000	-76.409988
6203.125000	-63.958225
6218.750000	-59.752502
6234.375000	-59.926697
6250.000000	-60.368973
6265.625000	-61.713478
6281.250000	-62.690575
6296.875000	-60.327942
6312.500000	-55.533726
6328.125000	-53.677879
6343.750000	-52.743546
6359.375000	-57.287964
6375.000000	-56.255562
6390.625000	-53.701702
6406.250000	-60.050694
6421.875000	-52.495083
6437.500000	-61.421692
6453.125000	-91.800789
6468.750000	-67.912392
6484.375000	-71.671165
6500.000000	-62.431095
6515.625000	-56.644833
6531.250000	-62.088970
6546.875000	-68.200691
6562.500000	-63.371944
6578.125000	-64.662048
6593.750000	-67.280487
6609.375000	-67.534904
6625.000000	-64.841110
6640.625000	-62.576870
6656.250000	-69.989281
6671.875000	-66.611542
6687.500000	-67.761192
6703.125000	-75.740677
6718.750000	-80.866570
6734.375000	-72.893349
6750.000000	-73.305542
6765.625000	-76.734947
6781.250000	-76.757721
6796.875000	-70.342781
6812.500000	-68.642128
6828.125000	-69.593460
6843.750000	-69.969925
6859.375000	-67.171806
6875.000000	-64.230232
6890.625000	-66.769318
6906.250000	-70.511642
6921.875000	-69.054245
6937.500000	-69.509026
6953.125000	-77.481888
6968.750000	-91.452110
6984.375000	-80.777435
7000.000000	-71.230141
7015.625000	-68.171417
7031.250000	-67.862152
7046.875000	-69.986519
7062.500000	-80.081802
7078.125000	-87.518608
7093.750000	-92.241913
7109.375000	-78.512657
7125.000000	-72.261986
7140.625000	-70.954086
7156.250000	-67.295692
7171.875000	-67.458641
7187.500000	-85.271751
7203.125000	-71.599579
7218.750000	-77.149818
7234.375000	-92.227966
7250.000000	-90.852493
7265.625000	-81.447151
7281.250000	-72.338165
7296.875000	-72.015121
7312.500000	-79.139641
7328.125000	-91.664261
7343.750000	-85.817825
7359.375000	-83.390709
7375.000000	-87.608803
7390.625000	-90.833633
7406.250000	-73.236298
7421.875000	-72.691505
7437.500000	-80.695045
7453.125000	-96.667343
7468.750000	-93.447121
7484.375000	-84.257187
7500.000000	-79.573738
7515.625000	-81.505417
7531.250000	-79.389885
7546.875000	-71.562057
7562.500000	-75.372177
7578.125000	-97.549896
7593.750000	-82.967346
7609.375000	-90.670952
7625.000000	-85.909744
7640.625000	-86.418694
7656.250000	-93.351982
7671.875000	-90.580475
7687.500000	-77.736557
7703.125000	-72.517319
7718.750000	-75.974419
7734.375000	-83.856689
7750.000000	-84.336716
7765.625000	-91.626488
7781.250000	-76.372757
7796.875000	-73.975136
7812.500000	-78.436386
7828.125000	-93.142593
7843.750000	-80.949310
7859.375000	-82.946465
7875.000000	-82.986412
7890.625000	-83.058670
7906.250000	-76.417976
7921.875000	-82.345314
7937.500000	-71.274002
7953.125000	-71.627518
7968.750000	-80.739807
7984.375000	-76.570183
