Frequency (Hz)	Level (dB)
15.625000	-53.733997
31.250000	-56.226955
46.875000	-50.064098
62.500000	-52.109043
78.125000	-55.849388
93.750000	-52.934441
109.375000	-62.479465
125.000000	-52.064373
140.625000	-29.737841
156.250000	-20.253780
171.875000	-23.030846
187.500000	-44.332024
203.125000	-47.437141
218.750000	-55.218746
234.375000	-59.036968
250.000000	-51.929260
265.625000	-63.826954
281.250000	-55.034126
296.875000	-39.111301
312.500000	-24.747881
328.125000	-23.940348
343.750000	-35.968807
359.375000	-50.385921
375.000000	-63.364464
390.625000	-52.038891
406.250000	-52.515713
421.875000	-54.511032
437.500000	-63.161884
453.125000	-45.333107
468.750000	-24.278048
484.375000	-20.494440
500.000000	-29.265141
515.625000	-45.943245
531.250000	-57.171291
546.875000	-53.220165
562.500000	-54.538948
578.125000	-55.527016
593.750000	-47.706245
609.375000	-43.786808
625.000000	-18.592415
640.625000	-12.042274
656.250000	-17.158243
671.875000	-56.416672
687.500000	-47.452991
703.125000	-50.098408
718.750000	-47.807148
734.375000	-59.359730
750.000000	-49.826862
765.625000	-47.172272
781.250000	-34.142017
796.875000	-25.177530
812.500000	-27.650066
828.125000	-43.524666
843.750000	-46.039024
859.375000	-54.190666
875.000000	-55.612717
890.625000	-39.821800
906.250000	-42.102722
921.875000	-48.210705
937.500000	-24.612597
953.125000	-12.260189
968.750000	-12.191289
984.375000	-25.176491
1000.000000	-36.780605
1015.625000	-37.052792
1031.250000	-47.098324
1046.875000	-55.938705
1062.500000	-55.519844
1078.125000	-54.370480
1093.750000	-43.509979
1109.375000	-36.842342
1125.000000	-29.914774
1140.625000	-35.871662
1156.250000	-45.676781
1171.875000	-45.305588
1187.500000	-50.362923
1203.125000	-56.072044
1218.750000	-62.150833
1234.375000	-69.666039
1250.000000	-71.357597
1265.625000	-74.406120
1281.250000	-89.773422
1296.875000	-79.839195
1312.500000	-79.728798
1328.125000	-88.911835
1343.750000	-83.115936
1359.375000	-88.233147
1375.000000	-72.469795
1390.625000	-70.606300
1406.250000	-65.264061
1421.875000	-56.875450
1437.500000	-56.968975
1453.125000	-54.476551
1468.750000	-56.917667
1484.375000	-59.336445
1500.000000	-64.506104
1515.625000	-70.453613
1531.250000	-76.632103
1546.875000	-82.298500
1562.500000	-85.197433
1578.125000	-94.239441
1593.750000	-97.395035
1609.375000	-94.794846
1625.000000	-100.991859
1640.625000	-99.125618
1656.250000	-100.946335
1671.875000	-101.232971
1687.500000	-108.326920
1703.125000	-103.468719
1718.750000	-105.052124
1734.375000	-106.239746
1750.000000	-110.350021
1765.625000	-104.929924
1781.250000	-101.103210
1796.875000	-106.960831
1812.500000	-96.333221
1828.125000	-95.535835
1843.750000	-93.990318
1859.375000	-89.639511
1875.000000	-82.024643
1890.625000	-85.057686
1906.250000	-79.769638
1921.875000	-77.256042
1937.500000	-85.408081
1953.125000	-83.928520
1968.750000	-86.453842
1984.375000	-90.682800
2000.000000	-85.239967
2015.625000	-76.982285
2031.250000	-75.657021
2046.875000	-69.182594
2062.500000	-60.109558
2078.125000	-51.714264
2093.750000	-50.470970
2109.375000	-58.065678
2125.000000	-73.642944
2140.625000	-74.042114
2156.250000	-81.302727
2171.875000	-79.484543
2187.500000	-75.129089
2203.125000	-68.848183
2218.750000	-80.433609
2234.375000	-56.826965
2250.000000	-51.801567
2265.625000	-56.171112
2281.250000	-64.292168
2296.875000	-72.213303
2312.500000	-66.870720
2328.125000	-64.167747
2343.750000	-65.123772
2359.375000	-62.536491
2375.000000	-59.734615
2390.625000	-46.567966
2406.250000	-40.302994
2421.875000	-43.685154
2437.500000	-55.830647
2453.125000	-61.410831
2468.750000	-55.601673
2484.375000	-57.129711
2500.000000	-51.183304
2515.625000	-56.104641
2531.250000	-45.966366
2546.875000	-41.104893
2562.500000	-29.180323
2578.125000	-29.898016
2593.750000	-41.861740
2609.375000	-60.773300
2625.000000	-59.550018
2640.625000	-56.597683
2656.250000	-59.977810
2671.875000	-73.326584
2687.500000	-70.330803
2703.125000	-56.217018
2718.750000	-45.154926
2734.375000	-46.615417
2750.000000	-63.588005
2765.625000	-62.983192
2781.250000	-62.026402
2796.875000	-57.545887
2812.500000	-56.004845
2828.125000	-57.521957
2843.750000	-70.336266
2859.375000	-57.862785
2875.000000	-41.918003
2890.625000	-36.841358
2906.250000	-43.321461
2921.875000	-59.933224
2937.500000	-55.281857
2953.125000	-62.046448
2968.750000	-56.085804
2984.375000	-69.233704
3000.000000	-56.094585
3015.625000	-56.543270
3031.250000	-46.528053
3046.875000	-39.211338
3062.500000	-42.495331
3078.125000	-57.092663
3093.750000	-63.934631
3109.375000	-59.309822
3125.000000	-64.292244
3140.625000	-64.000916
3156.250000	-71.316788
3171.875000	-62.549313
3187.500000	-54.698071
3203.125000	-47.793209
3218.750000	-47.466595
3234.375000	-55.243767
3250.000000	-70.211647
3265.625000	-63.729805
3281.250000	-67.152336
3296.875000	-68.340111
3312.500000	-77.350891
3328.125000	-62.418430
3343.750000	-60.623039
3359.375000	-52.995197
3375.000000	-49.923374
3390.625000	-55.897797
3406.250000	-51.761375
3421.875000	-63.648781
3437.500000	-73.370819
3453.125000	-66.771614
3468.750000	-62.035671
3484.375000	-74.455269
3500.000000	-58.772720
3515.625000	-43.606045
3531.250000	-38.910210
3546.875000	-41.794365
3562.500000	-45.167641
3578.125000	-54.174736
3593.750000	-64.915840
3609.375000	-71.956375
3625.000000	-68.676842
3640.625000	-75.270378
3656.250000	-62.950970
3671.875000	-55.602505
3687.500000	-51.380642
3703.125000	-49.334312
3718.750000	-56.955685
3734.375000	-69.431671
3750.000000	-64.535774
3765.625000	-65.598763
3781.250000	-72.480278
3796.875000	-72.116943
3812.500000	-69.170975
3828.125000	-72.897484
3843.750000	-61.442547
3859.375000	-58.479111
3875.000000	-60.101318
3890.625000	-64.322418
3906.250000	-66.863014
3921.875000	-67.774094
3937.500000	-68.247978
3953.125000	-70.880386
3968.750000	-71.988564
3984.375000	-67.387787
4000.000000	-59.438889
4015.625000	-56.724751
4031.250000	-60.209747
4046.875000	-73.306725
4062.500000	-75.130508
4078.125000	-72.074745
4093.750000	-72.523270
4109.375000	-73.096725
4125.000000	-90.262276
4140.625000	-76.061707
4156.250000	-77.333786
4171.875000	-81.376198
4187.500000	-75.180595
4203.125000	-77.375717
4218.750000	-71.861008
4234.375000	-71.528473
4250.000000	-72.691307
4265.625000	-75.046829
4281.250000	-77.556618
4296.875000	-78.296783
4312.500000	-77.143425
4328.125000	-76.112068
4343.750000	-75.631516
4359.375000	-75.451111
4375.000000	-75.602257
4390.625000	-78.791023
4406.250000	-81.925133
4421.875000	-91.164520
4437.500000	-95.296654
4453.125000	-116.412727
4468.750000	-87.843048
4484.375000	-81.571121
4500.000000	-80.709000
4515.625000	-74.189369
4531.250000	-67.132240
4546.875000	-69.025383
4562.500000	-77.616890
4578.125000	-87.330627
4593.750000	-87.717499
4609.375000	-89.089302
4625.000000	-83.130486
4640.625000	-77.851608
4656.250000	-74.869606
4671.875000	-73.908813
4687.500000	-74.662231
4703.125000	-77.294373
4718.750000	-82.127594
4734.375000	-86.479919
4750.000000	-82.864090
4765.625000	-77.851364
4781.250000	-77.818764
4796.875000	-75.562828
4812.500000	-62.789436
4828.125000	-67.240150
4843.750000	-70.441971
4859.375000	-78.048561
4875.000000	-80.111763
4890.625000	-80.477814
4906.250000	-81.187088
4921.875000	-72.531021
4937.500000	-68.146103
4953.125000	-64.146339
4968.750000	-54.494320
4984.375000	-54.794807
5000.000000	-70.301498
5015.625000	-62.092014
5031.250000	-69.295776
5046.875000	-69.303429
5062.500000	-72.099861
5078.125000	-77.810432
5093.750000	-71.735451
5109.375000	-64.163300
5125.000000	-57.040596
5140.625000	-57.786247
5156.250000	-79.155891
5171.875000	-68.126549
5187.500000	-64.822639
5203.125000	-61.362549
5218.750000	-65.996330
5234.375000	-72.961273
5250.000000	-82.801842
5265.625000	-86.724442
5281.250000	-61.726875
5296.875000	-55.597836
5312.500000	-65.955193
5328.125000	-63.132965
5343.750000	-70.350197
5359.375000	-66.555923
5375.000000	-66.602013
5390.625000	-74.558395
5406.250000	-69.507515
5421.875000	-62.361710
5437.500000	-59.919678
5453.125000	-61.840176
5468.750000	-64.155296
5484.375000	-66.519905
5500.000000	-70.633896
5515.625000	-69.516273
5531.250000	-69.815399
5546.875000	-69.915558
5562.500000	-70.346962
5578.125000	-78.204765
5593.750000	-65.331734
5609.375000	-56.456039
5625.000000	-58.379272
5640.625000	-62.248272
5656.250000	-66.543961
5671.875000	-74.521538
5687.500000	-65.013237
5703.125000	-68.990112
5718.750000	-76.855560
5734.375000	-76.562943
5750.000000	-62.653275
5765.625000	-60.778084
5781.250000	-67.079643
5796.875000	-82.106689
5812.500000	-69.125404
5828.125000	-65.578850
5843.750000	-69.539093
5859.375000	-79.567444
5875.000000	-64.575470
5890.625000	-64.872757
5906.250000	-71.363487
5921.875000	-58.609642
5937.500000	-56.715950
5953.125000	-59.859814
5968.750000	-63.583477
5984.375000	-67.108391
6000.000000	-61.495171
6015.625000	-67.429276
6031.250000	-72.601952
6046.875000	-83.986168
6062.500000	-79.130615
6078.125000	-84.293510
6093.750000	-75.266808
6109.375000	-68.909111
6125.000000	-66.591278
6140.625000	-72.616295
6156.250000	-75.270828
6171.875000	-80.120522
6187.500000	-73.246689
6203.125000	-75.622055
6218.750000	-77.066071
6234.375000	-71.774033
6250.000000	-61.870899
6265.625000	-61.545582
6281.250000	-71.457458
6296.875000	-66.265587
6312.500000	-71.264610
6328.125000	-70.537727
6343.750000	-70.316238
6359.375000	-69.034966
6375.000000	-67.801399
6390.625000	-66.912910
6406.250000	-66.836159
6421.875000	-71.498505
6437.500000	-75.327324
6453.125000	-75.170235
6468.750000	-76.360039
6484.375000	-77.832031
6500.000000	-77.541473
6515.625000	-78.260368
6531.250000	-77.383141
6546.875000	-70.920563
6562.500000	-66.285889
6578.125000	-67.583084
6593.750000	-74.319466
6609.375000	-77.445076
6625.000000	-75.767807
6640.625000	-74.493004
6656.250000	-75.404144
6671.875000	-78.174332
6687.500000	-81.835793
6703.125000	-84.825790
6718.750000	-84.374641
6734.375000	-81.720871
6750.000000	-79.683167
6765.625000	-77.902756
6781.250000	-76.452744
6796.875000	-76.698494
6812.500000	-79.387543
6828.125000	-84.987892
6843.750000	-89.595833
6859.375000	-85.867805
6875.000000	-81.749565
6890.625000	-79.586357
6906.250000	-78.346802
6921.875000	-77.088402
6937.500000	-76.346161
6953.125000	-77.125610
6968.750000	-79.662308
6984.375000	-82.779167
7000.000000	-84.905159
7015.625000	-85.865089
7031.250000	-84.520142
7046.875000	-83.196594
7062.500000	-82.940636
7078.125000	-83.682373
7093.750000	-84.824188
7109.375000	-85.126312
7125.000000	-86.761276
7140.625000	-83.945854
7156.250000	-83.965912
7171.875000	-83.890022
7187.500000	-76.444855
7203.125000	-81.643059
7218.750000	-70.048302
7234.375000	-73.696938
7250.000000	-78.585335
7265.625000	-80.376038
7281.250000	-79.102478
7296.875000	-77.098907
7312.500000	-73.315331
7328.125000	-75.328491
7343.750000	-73.165787
7359.375000	-73.317215
7375.000000	-80.627350
7390.625000	-72.859848
7406.250000	-72.687157
7421.875000	-82.423279
7437.500000	-75.204971
7453.125000	-73.839348
7468.750000	-74.578583
7484.375000	-75.419556
7500.000000	-79.277390
7515.625000	-76.486435
7531.250000	-74.661064
7546.875000	-78.267601
7562.500000	-80.419876
7578.125000	-77.740448
7593.750000	-76.972153
7609.375000	-75.224991
7625.000000	-69.130859
7640.625000	-80.165253
7656.250000	-81.261589
7671.875000	-74.121468
7687.500000	-71.032372
7703.125000	-70.665314
7718.750000	-76.833405
7734.375000	-80.191200
7750.000000	-90.990158
7765.625000	-80.395859
7781.250000	-68.978630
7796.875000	-68.174339
7812.500000	-70.897095
7828.125000	-71.576355
7843.750000	-69.099777
7859.375000	-71.144897
7875.000000	-73.229912
7890.625000	-71.222908
7906.250000	-86.678276
7921.875000	-73.604645
7937.500000	-73.071152
7953.125000	-72.569077
7968.750000	-71.990028
7984.375000	-71.414421
